File: Sample1/DataProcessing/Si_17keV_dbl60s_005.txt
/Users/robertfree/Desktop/G2_OE3_calibration/Si_17keV_dbl60s_005.tif: Azimuth/2-theta
2-Theta Angle (Degrees)

       1482
 0.00973871  0.0000000E+00
 0.0292161  0.0000000E+00
 0.0486936  0.0000000E+00
 0.068171  0.0000000E+00
 0.0876484  0.0000000E+00
 0.107126  14.0001
 0.126603  14.0001
 0.146081  0.0000000E+00
 0.165558  0.0000000E+00
 0.185036  0.0000000E+00
 0.204513  0.0000000E+00
 0.22399  5.0001
 0.243468  5.00012
 0.262945  0.0000000E+00
 0.282423  0.0000000E+00
 0.3019  0.0000000E+00
 0.321377  0.0000000E+00
 0.340855  11.0006
 0.360332  11.0006
 0.37981  0.0000000E+00
 0.399287  0.0000000E+00
 0.418765  0.0000000E+00
 0.438242  0.0000000E+00
 0.45772  11.001
 0.477197  11.0011
 0.496674  0.0000000E+00
 0.516152  0.0000000E+00
 0.535629  0.0000000E+00
 0.555107  0.0000000E+00
 0.574584  14.002
 0.594061  13.992
 0.613539  13.2855
 0.633016  13.0023
 0.652494  0.0000000E+00
 0.671971  0.0000000E+00
 0.691449  11.0023
 0.710926  11.0025
 0.730403  9.86242
 0.749881  9.00225
 0.769358  0.0000000E+00
 0.788836  0.0000000E+00
 0.808313  12.0035
 0.82779  12.0037
 0.847268  13.2008
 0.866745  14.0047
 0.886223  14.0049
 0.9057  0.0000000E+00
 0.925178  0.0000000E+00
 0.944655  10.004
 0.964132  8.21915
 0.98361  6.0026
 1.00309  6.00271
 1.02256  0.0000000E+00
 1.04204  0.0000000E+00
 1.06152  11.0056
 1.081  11.5665
 1.10047  13.0071
 1.11995  12.3103
 1.13943  12.007
 1.15891  0.0000000E+00
 1.17838  13.0081
 1.19786  13.2327
 1.21734  14.8179
 1.23682  13.9111
 1.25629  13.0092
 1.27577  13.0095
 1.29525  10.0076
 1.31473  10.0078
 1.3342  9.21911
 1.35368  10.1971
 1.37316  12.0102
 1.39264  12.0105
 1.41211  10.009
 1.43159  10.0092
 1.45107  10.0095
 1.47055  10.4886
 1.49002  12.012
 1.5095  12.0123
 1.52898  0.0000000E+00
 1.54846  13.0141
 1.56793  13.0144
 1.58741  12.9243
 1.60689  12.1303
 1.62636  11.5015
 1.64584  11.0135
 1.66532  12.8272
 1.6848  12.3042
 1.70427  11.0144
 1.72375  11.7682
 1.74323  12.0165
 1.76271  12.0169
 1.78218  10.702
 1.80166  9.81839
 1.82114  9.05032
 1.84062  11.4497
 1.86009  12.3562
 1.87957  9.06005
 1.89905  9.86379
 1.91853  12.9809
 1.938  9.61509
 1.95748  9.9389
 1.97696  11.0195
 1.99644  10.7671
 2.01591  10.8
 2.03539  12.0225
 2.05487  13.4766
 2.07435  12.7752
 2.09382  10.0199
 2.1133  10.0202
 2.13278  10.27
 2.15226  10.5715
 2.17173  9.71272
 2.19121  9.18956
 2.21069  9.98671
 2.23016  11.7118
 2.24964  12.4157
 2.26912  12.0936
 2.2886  11.2644
 2.30807  10.0689
 2.32755  11.6828
 2.34703  12.957
 2.36651  13.3712
 2.38598  10.7721
 2.40546  10.1918
 2.42494  8.02136
 2.44442  12.851
 2.46389  13.095
 2.48337  9.75219
 2.50285  12.3097
 2.52233  14.0792
 2.5418  14.1974
 2.56128  14.0417
 2.58076  13.4997
 2.60024  12.3887
 2.61971  12.9972
 2.63919  13.3723
 2.65867  14.128
 2.67815  14.2626
 2.69762  13.9531
 2.7171  12.5319
 2.73658  12.7258
 2.75606  13.1155
 2.77553  13.8432
 2.79501  14.7973
 2.81449  18.0648
 2.83397  17.2079
 2.85344  15.6563
 2.87292  14.5082
 2.8924  14.2117
 2.91188  13.9929
 2.93135  14.924
 2.95083  14.3776
 2.97031  14.8055
 2.98978  13.8603
 3.00926  12.7237
 3.02874  12.4632
 3.04822  11.8562
 3.06769  12.7143
 3.08717  13.8952
 3.10665  14.6261
 3.12613  15.3886
 3.1456  16.7804
 3.16508  16.684
 3.18456  15.0965
 3.20404  13.2321
 3.22351  14.0003
 3.24299  14.5532
 3.26247  14.6673
 3.28195  15.9398
 3.30142  15.5038
 3.3209  13.7155
 3.34038  14.0338
 3.35986  13.7119
 3.37933  13.7366
 3.39881  16.4858
 3.41829  18.5742
 3.43777  16.1428
 3.45724  15.2827
 3.47672  15.1495
 3.4962  16.2531
 3.51567  14.9571
 3.53515  14.0712
 3.55463  13.4376
 3.57411  13.3849
 3.59358  10.3214
 3.61306  11.2656
 3.63254  13.2415
 3.65202  15.9478
 3.67149  14.3439
 3.69097  13.6564
 3.71045  14.9633
 3.72993  15.028
 3.7494  15.4379
 3.76888  14.8343
 3.78836  15.7619
 3.80784  15.3786
 3.82731  16.6854
 3.84679  17.72
 3.86627  17.4704
 3.88575  15.6676
 3.90522  15.515
 3.9247  14.8512
 3.94418  13.016
 3.96366  14.2369
 3.98313  16.7477
 4.00261  12.6293
 4.02209  12.4738
 4.04157  14.2195
 4.06104  15.6335
 4.08052  16.6852
 4.1  13.4853
 4.11948  15.0245
 4.13895  17.1731
 4.15843  17.4743
 4.17791  16.0792
 4.19738  14.3295
 4.21686  14.0153
 4.23634  14.5888
 4.25582  14.7881
 4.27529  13.6441
 4.29477  13.2716
 4.31425  13.6548
 4.33373  16.3922
 4.3532  16.894
 4.37268  16.4571
 4.39216  15.452
 4.41164  15.1394
 4.43111  14.2435
 4.45059  13.5219
 4.47007  12.6146
 4.48955  12.9549
 4.50902  14.4625
 4.5285  14.7078
 4.54798  14.1763
 4.56746  15.3352
 4.58693  16.0804
 4.60641  14.3641
 4.62589  14.1494
 4.64537  13.8313
 4.66484  14.7553
 4.68432  13.9187
 4.7038  14.0112
 4.72328  12.2818
 4.74275  11.7128
 4.76223  12.1981
 4.78171  14.3643
 4.80119  14.6893
 4.82066  13.9801
 4.84014  13.1693
 4.85962  13.2643
 4.87909  12.6143
 4.89857  12.8971
 4.91805  12.8345
 4.93753  13.1513
 4.957  14.191
 4.97648  14.8424
 4.99596  14.8206
 5.01544  14.6422
 5.03491  14.5584
 5.05439  15.6376
 5.07387  16.4578
 5.09335  16.3017
 5.11282  13.5662
 5.1323  15.283
 5.15178  17.127
 5.17126  14.0139
 5.19073  11.1975
 5.21021  10.9741
 5.22969  12.9536
 5.24917  12.3895
 5.26864  12.5226
 5.28812  13.9631
 5.3076  15.6677
 5.32708  14.6851
 5.34655  15.6576
 5.36603  16.5474
 5.38551  15.9689
 5.40498  14.7532
 5.42446  14.4906
 5.44394  14.5248
 5.46342  13.4571
 5.48289  13.3882
 5.50237  13.6384
 5.52185  14.1593
 5.54133  14.1979
 5.5608  14.3012
 5.58028  14.6521
 5.59976  14.2943
 5.61924  12.4621
 5.63871  13.1727
 5.65819  13.6736
 5.67767  13.6462
 5.69715  13.3073
 5.71662  13.54
 5.7361  12.614
 5.75558  12.1812
 5.77506  12.9752
 5.79453  13.7551
 5.81401  12.682
 5.83349  11.7666
 5.85297  12.2224
 5.87244  12.2819
 5.89192  12.1941
 5.9114  13.834
 5.93088  13.57
 5.95035  13.9242
 5.96983  14.4776
 5.98931  13.8172
 6.00879  12.1892
 6.02826  11.928
 6.04774  11.9942
 6.06722  12.4806
 6.0867  12.7071
 6.10617  12.9612
 6.12565  12.5537
 6.14513  12.4853
 6.1646  13.1958
 6.18408  14.0115
 6.20356  14.2801
 6.22304  14.1945
 6.24251  14.9475
 6.26199  15.104
 6.28147  14.5116
 6.30095  14.4831
 6.32042  14.012
 6.3399  13.5183
 6.35938  13.6277
 6.37886  14.6676
 6.39833  15.3896
 6.41781  12.1958
 6.43729  11.2529
 6.45677  13.781
 6.47624  14.7873
 6.49572  13.7501
 6.5152  14.2876
 6.53468  14.753
 6.55415  14.0429
 6.57363  14.2117
 6.59311  14.0728
 6.61259  13.5149
 6.63206  13.1239
 6.65154  13.5113
 6.67102  13.8812
 6.6905  13.8683
 6.70997  13.7051
 6.72945  14.0521
 6.74893  14.1622
 6.7684  12.7844
 6.78788  11.6342
 6.80736  12.1059
 6.82684  12.0304
 6.84631  12.2818
 6.86579  11.8983
 6.88527  13.1688
 6.90475  14.2821
 6.92422  14.8991
 6.9437  14.4195
 6.96318  13.6402
 6.98266  14.0666
 7.00213  13.0324
 7.02161  13.1965
 7.04109  14.0686
 7.06057  14.8906
 7.08004  13.7991
 7.09952  12.8054
 7.119  13.1409
 7.13848  13.8858
 7.15795  14.505
 7.17743  14.2707
 7.19691  13.9979
 7.21639  13.672
 7.23586  12.7916
 7.25534  10.9718
 7.27482  9.64237
 7.2943  10.55
 7.31377  12.7797
 7.33325  13.1645
 7.35273  14.0243
 7.37221  13.8815
 7.39168  13.4754
 7.41116  12.0622
 7.43064  11.8182
 7.45011  12.2697
 7.46959  11.7129
 7.48907  12.2862
 7.50855  13.1433
 7.52802  13.9426
 7.5475  14.9852
 7.56698  14.0577
 7.58646  12.5255
 7.60593  12.3558
 7.62541  13.1316
 7.64489  13.8122
 7.66437  13.1451
 7.68384  12.5488
 7.70332  12.1706
 7.7228  12.2006
 7.74228  13.0551
 7.76175  13.6038
 7.78123  14.0136
 7.80071  14.6462
 7.82019  13.1257
 7.83966  12.7324
 7.85914  13.3153
 7.87862  13.9578
 7.8981  17.1488
 7.91757  15.8532
 7.93705  12.9951
 7.95653  12.7136
 7.97601  13.2667
 7.99548  13.684
 8.01496  14.5429
 8.03444  14.2595
 8.05391  13.1268
 8.07339  12.3487
 8.09287  12.4951
 8.11235  12.714
 8.13182  12.3102
 8.1513  11.9596
 8.17078  11.9604
 8.19026  12.4934
 8.20973  12.9345
 8.22921  12.8219
 8.24869  12.5605
 8.26817  13.4388
 8.28764  13.2343
 8.30712  12.1631
 8.3266  11.3429
 8.34608  11.0658
 8.36555  12.3429
 8.38503  13.0164
 8.40451  12.1717
 8.42399  13.6333
 8.44346  12.5183
 8.46294  11.4764
 8.48242  11.6445
 8.5019  11.5133
 8.52137  12.5012
 8.54085  13.3196
 8.56033  13.1753
 8.57981  13.1183
 8.59928  13.1695
 8.61876  12.9156
 8.63824  12.3581
 8.65771  12.1731
 8.67719  12.4832
 8.69667  12.3087
 8.71615  12.2943
 8.73562  12.8674
 8.7551  12.965
 8.77458  13.7365
 8.79406  13.1301
 8.81353  13.5691
 8.83301  14.7612
 8.85249  14.2459
 8.87197  12.3469
 8.89144  12.4666
 8.91092  13.606
 8.9304  12.6163
 8.94988  11.9985
 8.96935  13.2825
 8.98883  14.2
 9.00831  13.6956
 9.02779  13.2782
 9.04726  12.8071
 9.06674  13.6305
 9.08622  13.7345
 9.1057  13.932
 9.12517  14.9168
 9.14465  15.9825
 9.16413  15.1584
 9.18361  13.22
 9.20308  12.4654
 9.22256  12.6561
 9.24204  13.2074
 9.26151  13.3406
 9.28099  13.0981
 9.30047  12.7527
 9.31995  12.5701
 9.33943  13.242
 9.3589  12.7038
 9.37838  12.3306
 9.39786  12.0043
 9.41733  12.4906
 9.43681  13.5264
 9.45629  13.4423
 9.47577  13.9701
 9.49524  14.4039
 9.51472  11.8994
 9.5342  10.859
 9.55368  12.7278
 9.57315  12.1302
 9.59263  13.0562
 9.61211  14.1124
 9.63159  13.9231
 9.65106  12.0168
 9.67054  11.324
 9.69002  11.1435
 9.7095  11.7918
 9.72897  12.7032
 9.74845  12.5398
 9.76793  11.893
 9.7874  11.7512
 9.80688  12.7053
 9.82636  13.4121
 9.84584  13.4361
 9.86532  12.7694
 9.88479  12.564
 9.90427  12.8694
 9.92375  12.8718
 9.94322  12.3925
 9.9627  12.8662
 9.98218  13.239
 10.0017  13.2265
 10.0211  12.5947
 10.0406  12.7918
 10.0601  13.2906
 10.0796  12.6794
 10.099  12.7583
 10.1185  11.5105
 10.138  12.0425
 10.1575  13.7248
 10.177  14.2245
 10.1964  13.3333
 10.2159  12.2107
 10.2354  12.9859
 10.2549  13.3017
 10.2743  12.1876
 10.2938  11.9485
 10.3133  12.459
 10.3328  12.7658
 10.3522  13.0565
 10.3717  13.3741
 10.3912  13.1584
 10.4107  12.8631
 10.4302  12.8607
 10.4496  12.9088
 10.4691  12.5372
 10.4886  12.4882
 10.5081  12.801
 10.5275  13.1321
 10.547  13.6799
 10.5665  13.3581
 10.586  12.5101
 10.6055  11.9661
 10.6249  12.1801
 10.6444  12.9816
 10.6639  13.4516
 10.6834  13.2314
 10.7028  13.2568
 10.7223  13.235
 10.7418  13.3466
 10.7613  13.7929
 10.7808  13.5108
 10.8002  12.8003
 10.8197  13.1011
 10.8392  13.854
 10.8587  14.8531
 10.8781  14.4931
 10.8976  14.2088
 10.9171  13.5343
 10.9366  13.7389
 10.9561  13.494
 10.9755  13.4298
 10.995  12.5376
 11.0145  12.6319
 11.034  12.7122
 11.0534  12.7341
 11.0729  12.3487
 11.0924  12.0582
 11.1119  12.0468
 11.1313  12.4081
 11.1508  12.4386
 11.1703  12.0328
 11.1898  12.7835
 11.2093  14.6179
 11.2287  14.823
 11.2482  13.7994
 11.2677  13.0233
 11.2872  12.3253
 11.3066  12.663
 11.3261  13.6852
 11.3456  13.4698
 11.3651  11.1236
 11.3846  11.7857
 11.404  12.2266
 11.4235  13.2395
 11.443  14.3355
 11.4625  13.0346
 11.4819  12.631
 11.5014  12.5058
 11.5209  12.4482
 11.5404  12.4283
 11.5599  13.3356
 11.5793  13.9805
 11.5988  13.6474
 11.6183  12.7242
 11.6378  12.16
 11.6572  12.059
 11.6767  11.7754
 11.6962  12.4928
 11.7157  12.4652
 11.7351  12.6131
 11.7546  12.8835
 11.7741  12.6133
 11.7936  12.8445
 11.8131  13.1811
 11.8325  13.8316
 11.852  13.2655
 11.8715  13.6219
 11.891  13.1462
 11.9104  12.4714
 11.9299  12.8029
 11.9494  13.1339
 11.9689  13.166
 11.9884  11.8268
 12.0078  11.9582
 12.0273  13.2741
 12.0468  13.4644
 12.0663  12.4117
 12.0857  11.5954
 12.1052  12.1949
 12.1247  12.9392
 12.1442  13.04
 12.1637  13.0927
 12.1831  11.9015
 12.2026  11.7759
 12.2221  12.363
 12.2416  12.4443
 12.261  12.4789
 12.2805  12.9615
 12.3  13.3061
 12.3195  13.2914
 12.3389  12.5023
 12.3584  12.5574
 12.3779  13.4973
 12.3974  14.885
 12.4169  14.9789
 12.4363  13.3964
 12.4558  12.4798
 12.4753  12.6148
 12.4948  12.6432
 12.5142  12.3333
 12.5337  12.8513
 12.5532  13.313
 12.5727  13.6439
 12.5922  13.4751
 12.6116  13.8051
 12.6311  13.4422
 12.6506  13.0389
 12.6701  12.3135
 12.6895  12.939
 12.709  13.3333
 12.7285  13.4991
 12.748  13.977
 12.7675  13.8633
 12.7869  14.1091
 12.8064  13.7638
 12.8259  13.221
 12.8454  12.4856
 12.8648  12.6401
 12.8843  12.3725
 12.9038  12.4346
 12.9233  12.6575
 12.9427  13.3235
 12.9622  13.254
 12.9817  13.6778
 13.0012  13.5701
 13.0207  13.5987
 13.0401  13.0843
 13.0596  12.4936
 13.0791  11.3547
 13.0986  10.9542
 13.118  10.8906
 13.1375  11.6154
 13.157  12.303
 13.1765  12.6505
 13.196  11.5276
 13.2154  12.6017
 13.2349  13.65
 13.2544  13.9841
 13.2739  13.2556
 13.2933  12.8803
 13.3128  11.6292
 13.3323  11.9448
 13.3518  12.0603
 13.3713  12.1636
 13.3907  12.7746
 13.4102  12.9514
 13.4297  13.2495
 13.4492  13.0816
 13.4686  12.7892
 13.4881  12.2677
 13.5076  11.8715
 13.5271  11.5175
 13.5465  12.3093
 13.566  13.496
 13.5855  13.5487
 13.605  12.6332
 13.6245  12.0614
 13.6439  12.2605
 13.6634  12.516
 13.6829  12.8938
 13.7024  12.8175
 13.7218  13.2905
 13.7413  13.2213
 13.7608  12.5945
 13.7803  11.9983
 13.7998  13.1057
 13.8192  13.165
 13.8387  13.4998
 13.8582  13.6021
 13.8777  14.274
 13.8971  14.0681
 13.9166  12.3213
 13.9361  13.0626
 13.9556  11.7048
 13.9751  11.5721
 13.9945  13.385
 14.014  13.6706
 14.0335  13.3676
 14.053  13.0287
 14.0724  12.7981
 14.0919  12.9983
 14.1114  13.3679
 14.1309  13.4431
 14.1503  13.4764
 14.1698  12.8995
 14.1893  12.9435
 14.2088  12.8253
 14.2283  12.7493
 14.2477  12.3071
 14.2672  12.5319
 14.2867  12.605
 14.3062  12.4034
 14.3256  12.3775
 14.3451  13.3939
 14.3646  13.2358
 14.3841  11.7093
 14.4036  11.3396
 14.423  12.2174
 14.4425  12.9375
 14.462  12.8076
 14.4815  13.0102
 14.5009  13.3225
 14.5204  11.7811
 14.5399  13.9166
 14.5594  14.4549
 14.5789  13.5201
 14.5983  13.18
 14.6178  12.5633
 14.6373  13.4903
 14.6568  13.3005
 14.6762  13.5311
 14.6957  13.9114
 14.7152  13.3536
 14.7347  12.5447
 14.7541  12.0228
 14.7736  12.488
 14.7931  12.4202
 14.8126  12.5326
 14.8321  12.1969
 14.8515  12.13
 14.871  12.2242
 14.8905  12.7881
 14.91  13.0001
 14.9294  13.1496
 14.9489  13.0491
 14.9684  12.4
 14.9879  11.8545
 15.0074  11.8873
 15.0268  11.7692
 15.0463  11.4145
 15.0658  12.1834
 15.0853  13.1897
 15.1047  13.2253
 15.1242  12.9671
 15.1437  13.251
 15.1632  13.5986
 15.1827  13.3782
 15.2021  12.1783
 15.2216  12.8092
 15.2411  13.4874
 15.2606  12.8059
 15.28  13.2358
 15.2995  12.8035
 15.319  12.0166
 15.3385  12.9682
 15.3579  14.0592
 15.3774  13.0826
 15.3969  12.6049
 15.4164  12.7419
 15.4359  13.3799
 15.4553  13.337
 15.4748  13.6675
 15.4943  13.0558
 15.5138  12.3974
 15.5332  12.3787
 15.5527  12.3076
 15.5722  12.7652
 15.5917  12.1697
 15.6112  11.7393
 15.6306  11.9597
 15.6501  12.4721
 15.6696  12.6045
 15.6891  12.3122
 15.7085  12.931
 15.728  13.3056
 15.7475  13.179
 15.767  12.8229
 15.7865  12.7432
 15.8059  12.2074
 15.8254  11.372
 15.8449  11.4009
 15.8644  12.0229
 15.8838  13.0886
 15.9033  12.6745
 15.9228  11.6091
 15.9423  11.809
 15.9618  13.1234
 15.9812  13.416
 16.0007  12.906
 16.0202  12.3312
 16.0397  12.99
 16.0591  13.6006
 16.0786  13.0886
 16.0981  13.0886
 16.1176  13.3707
 16.137  13.0084
 16.1565  13.7559
 16.176  13.3963
 16.1955  12.9839
 16.215  12.6078
 16.2344  12.2473
 16.2539  12.5753
 16.2734  13.5321
 16.2929  13.7109
 16.3123  13.5176
 16.3318  14.2663
 16.3513  14.1953
 16.3708  14.1261
 16.3903  14.0206
 16.4097  13.923
 16.4292  13.5013
 16.4487  13.2312
 16.4682  13.3358
 16.4876  13.4663
 16.5071  14.0604
 16.5266  14.4616
 16.5461  14.6234
 16.5656  14.012
 16.585  13.0325
 16.6045  12.3626
 16.624  12.4639
 16.6435  13.0439
 16.6629  13.479
 16.6824  13.3227
 16.7019  13.349
 16.7214  13.292
 16.7408  13.0576
 16.7603  13.1884
 16.7798  13.6064
 16.7993  13.1544
 16.8188  12.5506
 16.8382  12.7524
 16.8577  13.774
 16.8772  15.1101
 16.8967  15.0325
 16.9161  14.1063
 16.9356  13.7969
 16.9551  13.9874
 16.9746  14.0549
 16.9941  14.362
 17.0135  13.5225
 17.033  13.1056
 17.0525  13.6932
 17.072  12.8308
 17.0914  12.9427
 17.1109  12.8447
 17.1304  12.5844
 17.1499  12.4693
 17.1694  12.4061
 17.1888  13.0769
 17.2083  13.8524
 17.2278  14.0599
 17.2473  13.9694
 17.2667  13.7307
 17.2862  14.3366
 17.3057  14.2375
 17.3252  12.8042
 17.3446  12.9189
 17.3641  13.1914
 17.3836  13.2209
 17.4031  13.381
 17.4226  13.2694
 17.442  13.5825
 17.4615  13.5399
 17.481  13.2047
 17.5005  13.0165
 17.5199  13.0447
 17.5394  12.7756
 17.5589  12.2904
 17.5784  12.322
 17.5979  12.7926
 17.6173  13.1554
 17.6368  13.1374
 17.6563  12.719
 17.6758  12.8396
 17.6952  13.2144
 17.7147  13.6373
 17.7342  13.2343
 17.7537  13.38
 17.7731  14.0493
 17.7926  14.2568
 17.8121  13.9433
 17.8316  13.8367
 17.8511  12.8215
 17.8705  12.4315
 17.89  12.4001
 17.9095  13.3721
 17.929  14.212
 17.9484  14.1342
 17.9679  13.6921
 17.9874  13.083
 18.0069  13.8413
 18.0264  13.933
 18.0458  13.6669
 18.0653  13.584
 18.0848  13.7441
 18.1043  13.65
 18.1237  13.2637
 18.1432  13.8664
 18.1627  13.0848
 18.1822  12.5824
 18.2017  13.8004
 18.2211  13.0793
 18.2406  12.0167
 18.2601  14.3979
 18.2796  14.4404
 18.299  13.3037
 18.3185  13.7548
 18.338  13.6373
 18.3575  13.1745
 18.3769  13.119
 18.3964  13.6867
 18.4159  13.6832
 18.4354  13.6165
 18.4549  13.397
 18.4743  13.4681
 18.4938  13.5605
 18.5133  13.7814
 18.5328  14.1228
 18.5522  14.2274
 18.5717  13.511
 18.5912  12.891
 18.6107  12.9
 18.6302  13.2753
 18.6496  13.7024
 18.6691  13.7858
 18.6886  13.6853
 18.7081  13.1369
 18.7275  12.6429
 18.747  12.8586
 18.7665  14.2558
 18.786  15.0002
 18.8055  14.5774
 18.8249  14.521
 18.8444  13.8857
 18.8639  13.5842
 18.8834  13.6746
 18.9028  14.2302
 18.9223  14.1224
 18.9418  14.2423
 18.9613  14.0633
 18.9808  13.3544
 19.0002  12.8501
 19.0197  12.9211
 19.0392  14.1397
 19.0587  14.7533
 19.0781  14.586
 19.0976  13.9089
 19.1171  13.8662
 19.1366  14.3902
 19.156  14.4535
 19.1755  13.5066
 19.195  13.1094
 19.2145  14.3646
 19.234  13.7043
 19.2534  13.1721
 19.2729  13.1398
 19.2924  13.5733
 19.3119  14.3514
 19.3313  15.7402
 19.3508  14.7109
 19.3703  13.2447
 19.3898  13.4727
 19.4093  14.778
 19.4287  14.6099
 19.4482  13.6019
 19.4677  13.7376
 19.4872  14.2337
 19.5066  14.352
 19.5261  14.9023
 19.5456  14.3801
 19.5651  14.1023
 19.5846  13.5148
 19.604  12.9936
 19.6235  13.264
 19.643  13.0734
 19.6625  12.6926
 19.6819  12.8265
 19.7014  13.8188
 19.7209  14.636
 19.7404  14.3782
 19.7598  14.5374
 19.7793  14.4967
 19.7988  14.1147
 19.8183  13.4405
 19.8378  13.8609
 19.8572  14.7228
 19.8767  15.0762
 19.8962  14.4462
 19.9157  14.1332
 19.9351  14.243
 19.9546  14.685
 19.9741  14.1906
 19.9936  13.9472
 20.0131  14.5167
 20.0325  14.7047
 20.052  14.5124
 20.0715  14.7156
 20.091  14.5191
 20.1104  14.3095
 20.1299  14.4666
 20.1494  14.2201
 20.1689  14.4216
 20.1884  14.6137
 20.2078  14.2608
 20.2273  13.9536
 20.2468  13.629
 20.2663  14.2536
 20.2857  14.6395
 20.3052  15.282
 20.3247  14.9649
 20.3442  13.8189
 20.3636  14.055
 20.3831  15.3369
 20.4026  14.5008
 20.4221  14.0537
 20.4416  15.0159
 20.461  13.2403
 20.4805  13.3328
 20.5  13.6386
 20.5195  14.0816
 20.5389  13.6525
 20.5584  13.1167
 20.5779  12.9178
 20.5974  12.9546
 20.6169  14.1415
 20.6363  13.6444
 20.6558  13.5056
 20.6753  14.3796
 20.6948  13.5189
 20.7142  13.3351
 20.7337  13.8487
 20.7532  13.7786
 20.7727  12.2093
 20.7921  13.2768
 20.8116  15.2003
 20.8311  16.0092
 20.8506  13.8344
 20.8701  13.0112
 20.8895  13.8648
 20.909  13.769
 20.9285  14.1187
 20.948  15.2678
 20.9674  14.9553
 20.9869  14.1848
 21.0064  15.3595
 21.0259  15.4293
 21.0454  14.7043
 21.0648  14.6804
 21.0843  13.9154
 21.1038  12.5855
 21.1233  12.5907
 21.1427  14.0774
 21.1622  14.2431
 21.1817  13.9992
 21.2012  13.7132
 21.2207  14.3172
 21.2401  13.9815
 21.2596  13.4494
 21.2791  13.8948
 21.2986  14.4962
 21.318  14.3766
 21.3375  13.6276
 21.357  13.5381
 21.3765  14.4177
 21.396  13.6964
 21.4154  13.8444
 21.4349  14.7819
 21.4544  14.556
 21.4739  14.4362
 21.4933  14.6056
 21.5128  14.8193
 21.5323  14.871
 21.5518  14.9682
 21.5712  14.5679
 21.5907  15.0103
 21.6102  15.7597
 21.6297  15.201
 21.6492  15.9746
 21.6686  16.447
 21.6881  16.1212
 21.7076  16.6545
 21.7271  17.5819
 21.7465  18.9056
 21.766  20.4741
 21.7855  25.1489
 21.805  43.4466
 21.8245  103.29
 21.8439  176.688
 21.8634  178.509
 21.8829  127.791
 21.9024  73.9557
 21.9218  42.8732
 21.9413  29.6746
 21.9608  24.8456
 21.9803  22.2085
 21.9997  19.6326
 22.0192  18.1845
 22.0387  17.283
 22.0582  16.3551
 22.0777  15.3343
 22.0971  15.2485
 22.1166  15.1799
 22.1361  14.6707
 22.1556  14.5853
 22.175  15.2185
 22.1945  14.9102
 22.214  14.4863
 22.2335  14.2224
 22.253  13.8515
 22.2724  13.1822
 22.2919  12.7608
 22.3114  13.8078
 22.3309  14.4824
 22.3503  14.6697
 22.3698  14.6657
 22.3893  14.0592
 22.4088  14.084
 22.4283  14.0865
 22.4477  14.5929
 22.4672  14.2679
 22.4867  13.7086
 22.5062  13.8483
 22.5256  14.6478
 22.5451  15.0565
 22.5646  15.2932
 22.5841  15.362
 22.6036  15.5212
 22.623  15.0714
 22.6425  14.0132
 22.662  13.5842
 22.6815  13.0274
 22.7009  13.1317
 22.7204  13.763
 22.7399  14.5401
 22.7594  14.4768
 22.7788  13.9785
 22.7983  14.7134
 22.8178  15.6407
 22.8373  15.7584
 22.8568  15.0559
 22.8762  14.9493
 22.8957  15.7124
 22.9152  15.6797
 22.9347  15.1819
 22.9541  14.9247
 22.9736  14.5505
 22.9931  15.3247
 23.0126  15.923
 23.0321  15.3924
 23.0515  14.3131
 23.071  14.0646
 23.0905  14.7006
 23.11  15.1679
 23.1294  14.8073
 23.1489  14.761
 23.1684  15.0515
 23.1879  15.2653
 23.2074  15.1777
 23.2268  15.319
 23.2463  14.6245
 23.2658  13.9192
 23.2853  14.0596
 23.3047  14.0746
 23.3242  13.9497
 23.3437  14.0561
 23.3632  14.1551
 23.3826  13.779
 23.4021  13.1707
 23.4216  13.4217
 23.4411  14.0716
 23.4606  14.2028
 23.48  13.8344
 23.4995  14.0541
 23.519  14.4608
 23.5385  14.5662
 23.5579  14.421
 23.5774  14.8993
 23.5969  15.8293
 23.6164  15.6135
 23.6359  13.9676
 23.6553  13.726
 23.6748  14.2946
 23.6943  15.0099
 23.7138  15.2339
 23.7332  14.6982
 23.7527  14.5948
 23.7722  14.9411
 23.7917  15.0691
 23.8112  14.7921
 23.8306  15.1142
 23.8501  14.998
 23.8696  14.785
 23.8891  14.5749
 23.9085  14.815
 23.928  14.4071
 23.9475  14.6331
 23.967  15.0873
 23.9864  15.4166
 24.0059  15.2045
 24.0254  14.7078
 24.0449  14.833
 24.0644  14.947
 24.0838  14.5026
 24.1033  15.2059
 24.1228  15.3476
 24.1423  15.4251
 24.1617  14.9037
 24.1812  15.1232
 24.2007  15.0945
 24.2202  14.8502
 24.2397  15.2396
 24.2591  15.8168
 24.2786  15.7854
 24.2981  14.0392
 24.3176  14.3844
 24.337  15.03
 24.3565  15.3831
 24.376  14.7265
 24.3955  15.6124
 24.415  15.3402
 24.4344  14.5505
 24.4539  13.8806
 24.4734  14.5126
 24.4929  15.8445
 24.5123  15.5062
 24.5318  15.5462
 24.5513  14.858
 24.5708  15.0886
 24.5902  14.8358
 24.6097  15.173
 24.6292  16.3068
 24.6487  15.2783
 24.6682  14.0322
 24.6876  15.2851
 24.7071  14.9427
 24.7266  16.4854
 24.7461  15.8654
 24.7655  15.0652
 24.785  15.0515
 24.8045  16.0878
 24.824  16.0723
 24.8435  15.4675
 24.8629  15.6943
 24.8824  15.8221
 24.9019  14.2232
 24.9214  14.4955
 24.9408  15.3888
 24.9603  16.3391
 24.9798  15.6272
 24.9993  15.546
 25.0188  15.6134
 25.0382  15.8978
 25.0577  15.1247
 25.0772  14.9836
 25.0967  15.0362
 25.1161  14.592
 25.1356  14.6851
 25.1551  14.4363
 25.1746  14.0068
 25.1941  14.751
 25.2135  15.5633
 25.233  15.7651
 25.2525  14.9226
 25.272  14.4035
 25.2914  15.5583
 25.3109  16.0755
 25.3304  15.1495
 25.3499  15.0428
 25.3693  16.3868
 25.3888  16.8042
 25.4083  16.5918
 25.4278  15.5167
 25.4473  15.485
 25.4667  16.0038
 25.4862  15.6976
 25.5057  15.5121
 25.5252  16.0458
 25.5446  16.1284
 25.5641  15.6368
 25.5836  15.8036
 25.6031  15.5252
 25.6226  15.8781
 25.642  16.618
 25.6615  17.249
 25.681  16.8519
 25.7005  16.2539
 25.7199  15.9426
 25.7394  15.8297
 25.7589  15.2286
 25.7784  15.8306
 25.7978  15.3997
 25.8173  15.3948
 25.8368  15.709
 25.8563  15.6549
 25.8758  15.6158
 25.8952  15.825
 25.9147  16.3803
 25.9342  16.1512
 25.9537  15.8104
 25.9731  14.6765
 25.9926  15.7879
 26.0121  16.5106
 26.0316  16.3606
 26.0511  15.8639
 26.0705  15.5478
 26.09  16.0186
 26.1095  16.2015
 26.129  15.5402
 26.1484  15.1762
 26.1679  15.2521
 26.1874  14.3982
 26.2069  13.824
 26.2264  14.0139
 26.2458  15.0497
 26.2653  15.5428
 26.2848  15.4595
 26.3043  15.2049
 26.3237  16.1836
 26.3432  16.4539
 26.3627  15.6945
 26.3822  15.8095
 26.4016  16.26
 26.4211  16.6732
 26.4406  16.4457
 26.4601  16.1278
 26.4796  15.6603
 26.499  16.0167
 26.5185  15.7235
 26.538  14.8288
 26.5575  15.0122
 26.5769  14.8892
 26.5964  15.2207
 26.6159  16.4174
 26.6354  15.735
 26.6549  16.6659
 26.6743  17.231
 26.6938  16.9185
 26.7133  15.3714
 26.7328  15.5582
 26.7522  16.2281
 26.7717  16.0523
 26.7912  16.1458
 26.8107  17.0219
 26.8302  16.2967
 26.8496  15.8745
 26.8691  14.9264
 26.8886  15.0433
 26.9081  15.4195
 26.9275  16.1284
 26.947  16.4358
 26.9665  17.1166
 26.986  17.4434
 27.0054  17.2858
 27.0249  16.3047
 27.0444  16.2667
 27.0639  16.022
 27.0834  16.2584
 27.1028  16.6907
 27.1223  15.9814
 27.1418  15.8606
 27.1613  15.5084
 27.1807  16.4728
 27.2002  16.1536
 27.2197  15.9412
 27.2392  16.0971
 27.2587  15.7041
 27.2781  16.6364
 27.2976  15.7599
 27.3171  15.8939
 27.3366  16.4328
 27.356  16.2955
 27.3755  17.0092
 27.395  17.2819
 27.4145  17.2524
 27.4339  16.965
 27.4534  16.3998
 27.4729  15.8535
 27.4924  15.5625
 27.5119  14.6777
 27.5313  14.3092
 27.5508  14.9736
 27.5703  16.5757
 27.5898  16.7786
 27.6092  16.0061
 27.6287  16.4953
 27.6482  16.9997
 27.6677  15.7061
 27.6872  15.4338
 27.7066  16.5605
 27.7261  16.3744
 27.7456  16.1358
 27.7651  17.0832
 27.7845  17.1241
 27.804  17.0293
 27.8235  16.1544
 27.843  16.2469
 27.8625  17.0699
 27.8819  16.579
 27.9014  15.4638
 27.9209  15.6475
 27.9404  16.2527
 27.9598  16.2109
 27.9793  16.1434
 27.9988  16.1094
 28.0183  15.7832
 28.0378  16.4404
 28.0572  16.9993
 28.0767  17.1893
 28.0962  16.3682
 28.1157  16.6458
 28.1351  16.4429
 28.1546  15.4727
 28.1741  15.3266
 28.1936  15.7396
 28.213  16.1177
 28.2325  17.0915
 28.252  16.6482
 28.2715  16.2631
 28.291  16.8217
 28.3104  17.2554
 28.3299  17.0846
 28.3494  16.8226
 28.3689  17.0188
 28.3883  17.7455
 28.4078  17.4821
 28.4273  17.4964
 28.4468  16.5367
 28.4663  16.0837
 28.4857  16.3379
 28.5052  16.6596
 28.5247  16.2534
 28.5442  15.9421
 28.5636  15.9854
 28.5831  15.0599
 28.6026  15.6367
 28.6221  16.3509
 28.6416  16.7516
 28.661  16.5878
 28.6805  15.8341
 28.7  15.7321
 28.7195  16.0526
 28.7389  16.143
 28.7584  16.1678
 28.7779  16.4731
 28.7974  16.7738
 28.8169  16.8979
 28.8363  16.882
 28.8558  17.1681